File: Curekinetics/LME_0_12b.txt
Filename:	D:\Clemens 2016\LME_0_12b.drdd
Operator ID:
Sample ID:	LME_0_12b
Comment: 	Isothermal 150C /480min
Serial Number:	587P2203
Data Collected:	25-10-2016 22:07:22
Sample Weight:	10.400 mg
Display Weight:	10.400
Validation
Validated:	No
By:
Date:
Calibration Information
Filename:	C:\Program Files\PerkinElmer\Pyris\Calibrations\default.drdc
Date/Time:
Initial Conditions
Temperature:	 100.00 °C
Y Initial:	20.00 mW
Sample Rate:	Standard
Baseline Filename:	D:\foostrum\FiberCore baseline.drdd
End Condition:	Go To Load
Total Points in Run:	28830
Method Steps:
Pre-Run Actions
Start the Run
	Action occurs Immediately
Switch the Gas to Nitrogen at 20.0 ml/min
	Action occurs Immediately
1)	Heat from 100.00°C to 150.00°C at 100.00°C/min

2)	Hold for 480.0 min at 150.00°C

1) Sapphire DSC Temperature Scan
	Time     	Unsubtracted	Baseline     	Program     	Sample     	Approx.     	Heat Flow
	          	Heat Flow     	Heat Flow     	Temperature	Temperature	Gas Flow     	Calibration
	0.000000	-5.623859	0.000000	101.667	153.025	0.000000	1.480999
	0.016667	-5.236370	0.000000	101.667	153.051	0.000000	1.480999
	0.033333	-4.819432	0.000000	103.333	153.067	0.000000	1.480999
	0.050000	-4.411462	0.000000	105	153.072	0.000000	1.480999
	0.066667	-4.051020	0.000000	106.667	153.068	0.000000	1.480999
	0.083333	-3.671158	0.000000	108.333	153.052	0.000000	1.480999
	0.100000	-3.309091	0.000000	110	153.03	0.000000	1.480999
	0.116667	-3.028590	0.000000	111.667	153.003	0.000000	1.480999
	0.133333	-2.675493	0.000000	113.333	152.964	0.000000	1.480999
	0.150000	-2.426559	0.000000	115	152.924	0.000000	1.480999
	0.166667	-2.114985	0.000000	116.667	152.866	0.000000	1.480999
	0.183333	-1.894511	0.000000	118.333	152.81	0.000000	1.480999
	0.200000	-1.661890	0.000000	120	152.743	0.000000	1.480999
	0.216667	-1.398903	0.000000	121.667	152.66	0.000000	1.480999
	0.233333	-1.211761	0.000000	123.333	152.583	0.000000	1.480999
	0.250000	-0.994818	0.000000	125	152.493	0.000000	1.480999
	0.266667	-0.788679	0.000000	126.667	152.386	0.000000	1.480999
	0.283333	-0.592216	0.000000	128.333	152.283	0.000000	1.480999
	0.300000	-0.438194	0.000000	130	152.184	0.000000	1.480999
	0.316667	-0.259103	0.000000	131.667	152.071	0.000000	1.480999
	0.333333	-0.102963	0.000000	133.333	151.951	0.000000	1.480999
	0.350000	0.045832	0.000000	135	151.824	0.000000	1.480999
	0.366667	0.216378	0.000000	136.667	151.682	0.000000	1.480999
	0.383333	0.351827	0.000000	138.333	151.548	0.000000	1.480999
	0.400000	0.493913	0.000000	140	151.409	0.000000	1.480999
	0.416667	0.604998	0.000000	141.667	151.279	0.000000	1.480999
	0.433333	0.747861	0.000000	143.333	151.121	0.000000	1.480999
	0.450000	0.849341	0.000000	145	150.988	0.000000	1.480999
	0.466667	0.967488	0.000000	146.667	150.838	0.000000	1.480999
	0.483333	1.072499	0.000000	148.333	150.683	0.000000	1.480999
2) Sapphire DSC Isothermal
	0.500000	1.205264	0.000000	150	150.511	0.000000	1.480999
	1.050000	0.855485	0.000000	150	151.434	0.000000	1.480999
	1.600000	0.930554	0.000000	150	152.389	0.000000	1.480999
	2.150000	1.357096	0.000000	150	152.483	0.000000	1.480999
	2.700000	1.438167	0.000000	150	152.553	0.000000	1.480999
	3.250000	1.520439	0.000000	150	152.626	0.000000	1.480999
	3.800000	1.602923	0.000000	150	152.68	0.000000	1.480999
	4.350000	1.686466	0.000000	150	152.729	0.000000	1.480999
	4.900000	1.773328	0.000000	150	152.771	0.000000	1.480999
	5.450000	1.862591	0.000000	150	152.811	0.000000	1.480999
	6.000000	1.941473	0.000000	150	152.859	0.000000	1.480999
	6.550000	2.022897	0.000000	150	152.902	0.000000	1.480999
	7.100000	2.097613	0.000000	150	152.937	0.000000	1.480999
	7.650000	2.178613	0.000000	150	152.955	0.000000	1.480999
	8.200000	2.245843	0.000000	150	152.978	0.000000	1.480999
	8.750000	2.301491	0.000000	150	153.011	0.000000	1.480999
	9.300000	2.359188	0.000000	150	153.038	0.000000	1.480999
	9.850000	2.404808	0.000000	150	153.061	0.000000	1.480999
	10.4	2.442731	0.000000	150	153.08	0.000000	1.480999
	10.95	2.471614	0.000000	150	153.095	0.000000	1.480999
	11.5	2.487291	0.000000	150	153.111	0.000000	1.480999
	12.05	2.492376	0.000000	150	153.121	0.000000	1.480999
	12.6	2.494424	0.000000	150	153.127	0.000000	1.480999
	13.15	2.476628	0.000000	150	153.137	0.000000	1.480999
	13.7	2.459467	0.000000	150	153.128	0.000000	1.480999
	14.25	2.423946	0.000000	150	153.135	0.000000	1.480999
	14.8	2.383128	0.000000	150	153.147	0.000000	1.480999
	15.35	2.338637	0.000000	150	153.151	0.000000	1.480999
	15.9	2.288144	0.000000	150	153.145	0.000000	1.480999
	16.45	2.223104	0.000000	150	153.155	0.000000	1.480999
	17	2.162865	0.000000	150	153.153	0.000000	1.480999
	17.55	2.097542	0.000000	150	153.149	0.000000	1.480999
	18.1	2.027346	0.000000	150	153.147	0.000000	1.480999
	18.65	1.953831	0.000000	150	153.159	0.000000	1.480999
	19.2	1.886178	0.000000	150	153.153	0.000000	1.480999
	19.75	1.812522	0.000000	150	153.151	0.000000	1.480999
	20.3	1.745221	0.000000	150	153.134	0.000000	1.480999
	20.85	1.670859	0.000000	150	153.136	0.000000	1.480999
	21.4	1.601228	0.000000	150	153.137	0.000000	1.480999
	21.95	1.534139	0.000000	150	153.133	0.000000	1.480999
	22.5	1.471076	0.000000	150	153.131	0.000000	1.480999
	23.05	1.405188	0.000000	150	153.125	0.000000	1.480999
	23.6	1.342548	0.000000	150	153.123	0.000000	1.480999
	24.15	1.281745	0.000000	150	153.117	0.000000	1.480999
	24.7	1.226026	0.000000	150	153.12	0.000000	1.480999
	25.25	1.170872	0.000000	150	153.114	0.000000	1.480999
	25.8	1.114589	0.000000	150	153.116	0.000000	1.480999
	26.35	1.063389	0.000000	150	153.113	0.000000	1.480999
	26.9	1.016780	0.000000	150	153.118	0.000000	1.480999
	27.45	0.969677	0.000000	150	153.12	0.000000	1.480999
	28	0.928930	0.000000	150	153.117	0.000000	1.480999
	28.55	0.883380	0.000000	150	153.114	0.000000	1.480999
	29.1	0.846799	0.000000	150	153.109	0.000000	1.480999
	29.65	0.803509	0.000000	150	153.108	0.000000	1.480999
	30.2	0.769753	0.000000	150	153.101	0.000000	1.480999
	30.75	0.728723	0.000000	150	153.101	0.000000	1.480999
	31.3	0.693837	0.000000	150	153.102	0.000000	1.480999
	31.85	0.666507	0.000000	150	153.093	0.000000	1.480999
	32.4	0.633387	0.000000	150	153.092	0.000000	1.480999
	32.95	0.601961	0.000000	150	153.094	0.000000	1.480999
	33.5	0.575267	0.000000	150	153.086	0.000000	1.480999
	34.05	0.546030	0.000000	150	153.088	0.000000	1.480999
	34.6	0.519124	0.000000	150	153.089	0.000000	1.480999
	35.15	0.498221	0.000000	150	153.083	0.000000	1.480999
	35.7	0.473080	0.000000	150	153.076	0.000000	1.480999
	36.25	0.444903	0.000000	150	153.081	0.000000	1.480999
	36.8	0.425765	0.000000	150	153.077	0.000000	1.480999
	37.35	0.406204	0.000000	150	153.069	0.000000	1.480999
	37.9	0.384877	0.000000	150	153.074	0.000000	1.480999
	38.45	0.363267	0.000000	150	153.069	0.000000	1.480999
	39	0.344906	0.000000	150	153.073	0.000000	1.480999
	39.55	0.325203	0.000000	150	153.074	0.000000	1.480999
	40.1	0.310585	0.000000	150	153.073	0.000000	1.480999
	40.65	0.295967	0.000000	150	153.064	0.000000	1.480999
	41.2	0.276405	0.000000	150	153.062	0.000000	1.480999
	41.75	0.259456	0.000000	150	153.062	0.000000	1.480999
	42.3	0.244909	0.000000	150	153.064	0.000000	1.480999
	42.85	0.233751	0.000000	150	153.056	0.000000	1.480999
	43.4	0.218285	0.000000	150	153.054	0.000000	1.480999
	43.95	0.204444	0.000000	150	153.054	0.000000	1.480999
	44.5	0.188907	0.000000	150	153.059	0.000000	1.480999
	45.05	0.175207	0.000000	150	153.061	0.000000	1.480999
	45.6	0.167933	0.000000	150	153.052	0.000000	1.480999
	46.15	0.156140	0.000000	150	153.045	0.000000	1.480999
	46.7	0.140462	0.000000	150	153.05	0.000000	1.480999
	47.25	0.130576	0.000000	150	153.05	0.000000	1.480999
	47.8	0.120830	0.000000	150	153.052	0.000000	1.480999
	48.35	0.107695	0.000000	150	153.056	0.000000	1.480999
	48.9	0.098797	0.000000	150	153.059	0.000000	1.480999
	49.45	0.089051	0.000000	150	153.05	0.000000	1.480999
	50	0.077611	0.000000	150	153.043	0.000000	1.480999
	50.55	0.067512	0.000000	150	153.058	0.000000	1.480999
	51.1	0.056849	0.000000	150	153.063	0.000000	1.480999
	51.65	0.054448	0.000000	150	153.057	0.000000	1.480999
	52.2	0.042160	0.000000	150	153.054	0.000000	1.480999
	52.75	0.034392	0.000000	150	153.046	0.000000	1.480999
	53.3	0.022104	0.000000	150	153.05	0.000000	1.480999
	53.85	0.014265	0.000000	150	153.043	0.000000	1.480999
	54.4	0.002542	0.000000	150	153.049	0.000000	1.480999
	54.95	-0.002542	0.000000	150	153.05	0.000000	1.480999
	55.5	-0.007627	0.000000	150	153.047	0.000000	1.480999
	56.05	-0.018432	0.000000	150	153.042	0.000000	1.480999
	56.6	-0.024434	0.000000	150	153.039	0.000000	1.480999
	57.15	-0.033474	0.000000	150	153.042	0.000000	1.480999
	57.7	-0.040677	0.000000	150	153.046	0.000000	1.480999
	58.25	-0.049081	0.000000	150	153.041	0.000000	1.480999
	58.8	-0.054448	0.000000	150	153.043	0.000000	1.480999
	59.35	-0.059744	0.000000	150	153.04	0.000000	1.480999
	59.9	-0.073727	0.000000	150	153.048	0.000000	1.480999
	60.45	-0.072385	0.000000	150	153.037	0.000000	1.480999
	61	-0.083896	0.000000	150	153.044	0.000000	1.480999
	61.55	-0.091311	0.000000	150	153.045	0.000000	1.480999
	62.1	-0.094065	0.000000	150	153.048	0.000000	1.480999
	62.65	-0.099150	0.000000	150	153.052	0.000000	1.480999
	63.2	-0.106565	0.000000	150	153.05	0.000000	1.480999
	63.75	-0.108401	0.000000	150	153.043	0.000000	1.480999
	64.3	-0.116522	0.000000	150	153.043	0.000000	1.480999
	64.85	-0.123231	0.000000	150	153.05	0.000000	1.480999
	65.4	-0.127045	0.000000	150	153.044	0.000000	1.480999
	65.95	-0.131141	0.000000	150	153.036	0.000000	1.480999
	66.5	-0.137779	0.000000	150	153.037	0.000000	1.480999
	67.05	-0.144417	0.000000	150	153.036	0.000000	1.480999
	67.6	-0.148513	0.000000	150	153.038	0.000000	1.480999
	68.15	-0.149996	0.000000	150	153.027	0.000000	1.480999
	68.7	-0.153598	0.000000	150	153.034	0.000000	1.480999
	69.25	-0.162919	0.000000	150	153.035	0.000000	1.480999
	69.8	-0.167015	0.000000	150	153.04	0.000000	1.480999
	70.35	-0.169134	0.000000	150	153.035	0.000000	1.480999
	70.9	-0.168640	0.000000	150	153.031	0.000000	1.480999
	71.45	-0.174854	0.000000	150	153.025	0.000000	1.480999
	72	-0.179515	0.000000	150	153.027	0.000000	1.480999
	72.55	-0.186365	0.000000	150	153.033	0.000000	1.480999
	73.1	-0.188342	0.000000	150	153.034	0.000000	1.480999
	73.65	-0.192580	0.000000	150	153.035	0.000000	1.480999
	74.2	-0.193356	0.000000	150	153.035	0.000000	1.480999
	74.75	-0.194063	0.000000	150	153.028	0.000000	1.480999
	75.3	-0.200701	0.000000	150	153.037	0.000000	1.480999
	75.85	-0.202749	0.000000	150	153.041	0.000000	1.480999
	76.4	-0.202890	0.000000	150	153.032	0.000000	1.480999
	76.95	-0.207622	0.000000	150	153.032	0.000000	1.480999
	77.5	-0.212706	0.000000	150	153.041	0.000000	1.480999
	78.05	-0.214330	0.000000	150	153.036	0.000000	1.480999
	78.6	-0.216731	0.000000	150	153.035	0.000000	1.480999
	79.15	-0.215178	0.000000	150	153.027	0.000000	1.480999
	79.7	-0.222310	0.000000	150	153.03	0.000000	1.480999
	80.25	-0.221887	0.000000	150	153.031	0.000000	1.480999
	80.8	-0.227819	0.000000	150	153.038	0.000000	1.480999
	81.35	-0.226406	0.000000	150	153.039	0.000000	1.480999
	81.9	-0.229725	0.000000	150	153.043	0.000000	1.480999
	82.45	-0.232691	0.000000	150	153.046	0.000000	1.480999
	83	-0.228525	0.000000	150	153.038	0.000000	1.480999
	83.55	-0.235022	0.000000	150	153.036	0.000000	1.480999
	84.1	-0.234245	0.000000	150	153.034	0.000000	1.480999
	84.65	-0.235093	0.000000	150	153.028	0.000000	1.480999
	85.2	-0.240106	0.000000	150	153.038	0.000000	1.480999
	85.75	-0.241519	0.000000	150	153.043	0.000000	1.480999
	86.3	-0.239895	0.000000	150	153.036	0.000000	1.480999
	86.85	-0.243779	0.000000	150	153.04	0.000000	1.480999
	87.4	-0.248016	0.000000	150	153.041	0.000000	1.480999
	87.95	-0.245262	0.000000	150	153.037	0.000000	1.480999
	88.5	-0.247451	0.000000	150	153.037	0.000000	1.480999
	89.05	-0.248651	0.000000	150	153.029	0.000000	1.480999
	89.6	-0.250205	0.000000	150	153.032	0.000000	1.480999
	90.15	-0.249570	0.000000	150	153.026	0.000000	1.480999
	90.7	-0.252747	0.000000	150	153.023	0.000000	1.480999
	91.25	-0.253171	0.000000	150	153.027	0.000000	1.480999
	91.8	-0.256490	0.000000	150	153.032	0.000000	1.480999
	92.35	-0.255643	0.000000	150	153.03	0.000000	1.480999
	92.9	-0.253736	0.000000	150	153.023	0.000000	1.480999
	93.45	-0.260727	0.000000	150	153.027	0.000000	1.480999
	94	-0.256278	0.000000	150	153.027	0.000000	1.480999
	94.55	-0.261222	0.000000	150	153.024	0.000000	1.480999
	95.1	-0.260657	0.000000	150	153.025	0.000000	1.480999
	95.65	-0.261857	0.000000	150	153.027	0.000000	1.480999
	96.2	-0.264682	0.000000	150	153.027	0.000000	1.480999
	96.75	-0.263905	0.000000	150	153.036	0.000000	1.480999
	97.3	-0.264541	0.000000	150	153.031	0.000000	1.480999
	97.85	-0.263411	0.000000	150	153.036	0.000000	1.480999
	98.4	-0.265671	0.000000	150	153.035	0.000000	1.480999
	98.95	-0.267366	0.000000	150	153.033	0.000000	1.480999
	99.5	-0.267860	0.000000	150	153.027	0.000000	1.480999
	100.05	-0.268001	0.000000	150	153.03	0.000000	1.480999
	100.6	-0.267224	0.000000	150	153.033	0.000000	1.480999
	101.15	-0.268637	0.000000	150	153.031	0.000000	1.480999
	101.7	-0.265671	0.000000	150	153.024	0.000000	1.480999
	102.25	-0.271532	0.000000	150	153.027	0.000000	1.480999
	102.8	-0.269131	0.000000	150	153.024	0.000000	1.480999
	103.35	-0.269767	0.000000	150	153.023	0.000000	1.480999
	103.9	-0.273933	0.000000	150	153.03	0.000000	1.480999
	104.45	-0.270685	0.000000	150	153.029	0.000000	1.480999
	105	-0.272874	0.000000	150	153.027	0.000000	1.480999
	105.55	-0.280077	0.000000	150	153.041	0.000000	1.480999
	106.1	-0.275134	0.000000	150	153.035	0.000000	1.480999
	106.65	-0.274357	0.000000	150	153.036	0.000000	1.480999
	107.2	-0.277394	0.000000	150	153.044	0.000000	1.480999
	107.75	-0.274639	0.000000	150	153.035	0.000000	1.480999
	108.3	-0.274781	0.000000	150	153.029	0.000000	1.480999
	108.85	-0.276334	0.000000	150	153.027	0.000000	1.480999
	109.4	-0.278170	0.000000	150	153.024	0.000000	1.480999
	109.95	-0.278947	0.000000	150	153.026	0.000000	1.480999
	110.5	-0.275911	0.000000	150	153.02	0.000000	1.480999
	111.05	-0.278312	0.000000	150	153.024	0.000000	1.480999
	111.6	-0.279936	0.000000	150	153.024	0.000000	1.480999
	112.15	-0.279300	0.000000	150	153.024	0.000000	1.480999
	112.7	-0.280218	0.000000	150	153.024	0.000000	1.480999
	113.25	-0.280925	0.000000	150	153.024	0.000000	1.480999
	113.8	-0.280289	0.000000	150	153.029	0.000000	1.480999
	114.35	-0.283467	0.000000	150	153.035	0.000000	1.480999
	114.9	-0.280289	0.000000	150	153.029	0.000000	1.480999
	115.45	-0.283608	0.000000	150	153.031	0.000000	1.480999
	116	-0.284244	0.000000	150	153.037	0.000000	1.480999
	116.55	-0.288269	0.000000	150	153.048	0.000000	1.480999
	117.1	-0.280925	0.000000	150	153.044	0.000000	1.480999
	117.65	-0.282266	0.000000	150	153.043	0.000000	1.480999
	118.2	-0.282902	0.000000	150	153.041	0.000000	1.480999
	118.75	-0.283467	0.000000	150	153.041	0.000000	1.480999
	119.3	-0.280854	0.000000	150	153.035	0.000000	1.480999
	119.85	-0.284526	0.000000	150	153.034	0.000000	1.480999
	120.4	-0.281631	0.000000	150	153.023	0.000000	1.480999
	120.95	-0.287633	0.000000	150	153.026	0.000000	1.480999
	121.5	-0.287916	0.000000	150	153.038	0.000000	1.480999
	122.05	-0.284879	0.000000	150	153.03	0.000000	1.480999
	122.6	-0.288128	0.000000	150	153.035	0.000000	1.480999
	123.15	-0.283043	0.000000	150	153.03	0.000000	1.480999
	123.7	-0.283679	0.000000	150	153.027	0.000000	1.480999
	124.25	-0.286150	0.000000	150	153.026	0.000000	1.480999
	124.8	-0.287492	0.000000	150	153.033	0.000000	1.480999
	125.35	-0.284244	0.000000	150	153.026	0.000000	1.480999
	125.9	-0.289823	0.000000	150	153.035	0.000000	1.480999
	126.45	-0.288763	0.000000	150	153.033	0.000000	1.480999
	127	-0.287987	0.000000	150	153.033	0.000000	1.480999
	127.55	-0.288552	0.000000	150	153.036	0.000000	1.480999
	128.1	-0.289470	0.000000	150	153.033	0.000000	1.480999
	128.65	-0.291023	0.000000	150	153.038	0.000000	1.480999
	129.2	-0.288622	0.000000	150	153.033	0.000000	1.480999
	129.75	-0.286998	0.000000	150	153.034	0.000000	1.480999
	130.3	-0.291871	0.000000	150	153.037	0.000000	1.480999
	130.85	-0.288269	0.000000	150	153.031	0.000000	1.480999
	131.4	-0.288834	0.000000	150	153.027	0.000000	1.480999
	131.95	-0.290246	0.000000	150	153.04	0.000000	1.480999
	132.5	-0.289470	0.000000	150	153.027	0.000000	1.480999
	133.05	-0.291094	0.000000	150	153.031	0.000000	1.480999
	133.6	-0.290035	0.000000	150	153.035	0.000000	1.480999
	134.15	-0.286715	0.000000	150	153.029	0.000000	1.480999
	134.7	-0.289399	0.000000	150	153.03	0.000000	1.480999
	135.25	-0.292789	0.000000	150	153.029	0.000000	1.480999
	135.8	-0.292294	0.000000	150	153.028	0.000000	1.480999
	136.35	-0.292718	0.000000	150	153.03	0.000000	1.480999
	136.9	-0.292012	0.000000	150	153.031	0.000000	1.480999
	137.45	-0.291800	0.000000	150	153.037	0.000000	1.480999
	138	-0.290811	0.000000	150	153.034	0.000000	1.480999
	138.55	-0.296249	0.000000	150	153.033	0.000000	1.480999
	139.1	-0.289328	0.000000	150	153.015	0.000000	1.480999
	139.65	-0.292153	0.000000	150	153.006	0.000000	1.480999
	140.2	-0.293424	0.000000	150	153.009	0.000000	1.480999
	140.75	-0.296108	0.000000	150	153.022	0.000000	1.480999
	141.3	-0.294837	0.000000	150	153.02	0.000000	1.480999
	141.85	-0.290882	0.000000	150	153.016	0.000000	1.480999
	142.4	-0.294837	0.000000	150	153.012	0.000000	1.480999
	142.95	-0.294978	0.000000	150	153.016	0.000000	1.480999
	143.5	-0.296461	0.000000	150	153.016	0.000000	1.480999
	144.05	-0.294130	0.000000	150	153.014	0.000000	1.480999
	144.6	-0.294484	0.000000	150	153.015	0.000000	1.480999
	145.15	-0.293919	0.000000	150	153.011	0.000000	1.480999
	145.7	-0.294837	0.000000	150	153.01	0.000000	1.480999
	146.25	-0.297167	0.000000	150	153.014	0.000000	1.480999
	146.8	-0.297379	0.000000	150	153.021	0.000000	1.480999
	147.35	-0.294272	0.000000	150	153.017	0.000000	1.480999
	147.9	-0.296955	0.000000	150	153.022	0.000000	1.480999
	148.45	-0.296673	0.000000	150	153.028	0.000000	1.480999
	149	-0.296955	0.000000	150	153.02	0.000000	1.480999
	149.55	-0.297026	0.000000	150	153.02	0.000000	1.480999
	150.1	-0.294201	0.000000	150	153.014	0.000000	1.480999
	150.65	-0.297308	0.000000	150	153.014	0.000000	1.480999
	151.2	-0.295331	0.000000	150	153.01	0.000000	1.480999
	151.75	-0.298297	0.000000	150	153.017	0.000000	1.480999
	152.3	-0.295613	0.000000	150	153.014	0.000000	1.480999
	152.85	-0.295613	0.000000	150	153.019	0.000000	1.480999
	153.4	-0.298579	0.000000	150	153.02	0.000000	1.480999
	153.95	-0.297661	0.000000	150	153.018	0.000000	1.480999
	154.5	-0.299003	0.000000	150	153.017	0.000000	1.480999
	155.05	-0.297096	0.000000	150	153.014	0.000000	1.480999
	155.6	-0.302110	0.000000	150	153.029	0.000000	1.480999
	156.15	-0.299498	0.000000	150	153.026	0.000000	1.480999
	156.7	-0.299992	0.000000	150	153.026	0.000000	1.480999
	157.25	-0.299992	0.000000	150	153.033	0.000000	1.480999
	157.8	-0.298368	0.000000	150	153.028	0.000000	1.480999
	158.35	-0.297520	0.000000	150	153.029	0.000000	1.480999
	158.9	-0.300839	0.000000	150	153.026	0.000000	1.480999
	159.45	-0.297944	0.000000	150	153.029	0.000000	1.480999
	160	-0.299709	0.000000	150	153.032	0.000000	1.480999
	160.55	-0.300486	0.000000	150	153.031	0.000000	1.480999
	161.1	-0.299992	0.000000	150	153.029	0.000000	1.480999
	161.65	-0.299498	0.000000	150	153.026	0.000000	1.480999
	162.2	-0.301334	0.000000	150	153.031	0.000000	1.480999
	162.75	-0.302181	0.000000	150	153.028	0.000000	1.480999
	163.3	-0.299498	0.000000	150	153.025	0.000000	1.480999
	163.85	-0.300627	0.000000	150	153.02	0.000000	1.480999
	164.4	-0.298509	0.000000	150	153.019	0.000000	1.480999
	164.95	-0.301687	0.000000	150	153.022	0.000000	1.480999
	165.5	-0.298297	0.000000	150	153.02	0.000000	1.480999
	166.05	-0.301051	0.000000	150	153.024	0.000000	1.480999
	166.6	-0.301051	0.000000	150	153.022	0.000000	1.480999
	167.15	-0.300981	0.000000	150	153.028	0.000000	1.480999
	167.7	-0.301051	0.000000	150	153.031	0.000000	1.480999
	168.25	-0.300910	0.000000	150	153.034	0.000000	1.480999
	168.8	-0.300627	0.000000	150	153.039	0.000000	1.480999
	169.35	-0.299427	0.000000	150	153.045	0.000000	1.480999
	169.9	-0.302393	0.000000	150	153.041	0.000000	1.480999
	170.45	-0.299992	0.000000	150	153.035	0.000000	1.480999
	171	-0.302393	0.000000	150	153.042	0.000000	1.480999
	171.55	-0.300981	0.000000	150	153.043	0.000000	1.480999
	172.1	-0.302181	0.000000	150	153.042	0.000000	1.480999
	172.65	-0.300416	0.000000	150	153.035	0.000000	1.480999
	173.2	-0.300557	0.000000	150	153.035	0.000000	1.480999
	173.75	-0.301546	0.000000	150	153.038	0.000000	1.480999
	174.3	-0.301687	0.000000	150	153.036	0.000000	1.480999
	174.85	-0.303240	0.000000	150	153.043	0.000000	1.480999
	175.4	-0.299074	0.000000	150	153.031	0.000000	1.480999
	175.95	-0.299992	0.000000	150	153.039	0.000000	1.480999
	176.5	-0.300204	0.000000	150	153.035	0.000000	1.480999
	177.05	-0.301546	0.000000	150	153.039	0.000000	1.480999
	177.6	-0.301051	0.000000	150	153.04	0.000000	1.480999
	178.15	-0.302322	0.000000	150	153.039	0.000000	1.480999
	178.7	-0.305076	0.000000	150	153.048	0.000000	1.480999
	179.25	-0.301192	0.000000	150	153.041	0.000000	1.480999
	179.8	-0.302605	0.000000	150	153.037	0.000000	1.480999
	180.35	-0.305147	0.000000	150	153.045	0.000000	1.480999
	180.9	-0.299992	0.000000	150	153.036	0.000000	1.480999
	181.45	-0.301899	0.000000	150	153.044	0.000000	1.480999
	182	-0.304229	0.000000	150	153.053	0.000000	1.480999
	182.55	-0.302817	0.000000	150	153.05	0.000000	1.480999
	183.1	-0.300839	0.000000	150	153.042	0.000000	1.480999
	183.65	-0.302746	0.000000	150	153.05	0.000000	1.480999
	184.2	-0.300204	0.000000	150	153.05	0.000000	1.480999
	184.75	-0.301192	0.000000	150	153.046	0.000000	1.480999
	185.3	-0.299427	0.000000	150	153.039	0.000000	1.480999
	185.85	-0.302817	0.000000	150	153.051	0.000000	1.480999
	186.4	-0.301899	0.000000	150	153.041	0.000000	1.480999
	186.95	-0.303382	0.000000	150	153.046	0.000000	1.480999
	187.5	-0.303593	0.000000	150	153.048	0.000000	1.480999
	188.05	-0.299427	0.000000	150	153.039	0.000000	1.480999
	188.6	-0.306277	0.000000	150	153.054	0.000000	1.480999
	189.15	-0.306136	0.000000	150	153.054	0.000000	1.480999
	189.7	-0.302040	0.000000	150	153.057	0.000000	1.480999
	190.25	-0.304653	0.000000	150	153.056	0.000000	1.480999
	190.8	-0.304723	0.000000	150	153.062	0.000000	1.480999
	191.35	-0.301757	0.000000	150	153.052	0.000000	1.480999
	191.9	-0.302605	0.000000	150	153.048	0.000000	1.480999
	192.45	-0.301051	0.000000	150	153.046	0.000000	1.480999
	193	-0.303947	0.000000	150	153.047	0.000000	1.480999
	193.55	-0.301687	0.000000	150	153.045	0.000000	1.480999
	194.1	-0.304088	0.000000	150	153.047	0.000000	1.480999
	194.65	-0.303382	0.000000	150	153.043	0.000000	1.480999
	195.2	-0.302252	0.000000	150	153.047	0.000000	1.480999
	195.75	-0.304653	0.000000	150	153.053	0.000000	1.480999
	196.3	-0.305430	0.000000	150	153.054	0.000000	1.480999
	196.85	-0.305006	0.000000	150	153.046	0.000000	1.480999
	197.4	-0.304865	0.000000	150	153.052	0.000000	1.480999
	197.95	-0.305147	0.000000	150	153.056	0.000000	1.480999
	198.5	-0.303240	0.000000	150	153.054	0.000000	1.480999
	199.05	-0.304794	0.000000	150	153.048	0.000000	1.480999
	199.6	-0.302675	0.000000	150	153.054	0.000000	1.480999
	200.15	-0.302534	0.000000	150	153.035	0.000000	1.480999
	200.7	-0.301969	0.000000	150	153.043	0.000000	1.480999
	201.25	-0.304794	0.000000	150	153.036	0.000000	1.480999
	201.8	-0.302464	0.000000	150	153.037	0.000000	1.480999
	202.35	-0.303805	0.000000	150	153.077	0.000000	1.480999
	202.9	-0.304935	0.000000	150	153.05	0.000000	1.480999
	203.45	-0.302958	0.000000	150	153.039	0.000000	1.480999
	204	-0.306065	0.000000	150	153.046	0.000000	1.480999
	204.55	-0.302605	0.000000	150	153.057	0.000000	1.480999
	205.1	-0.304088	0.000000	150	153.079	0.000000	1.480999
	205.65	-0.307054	0.000000	150	153.067	0.000000	1.480999
	206.2	-0.303099	0.000000	150	153.074	0.000000	1.480999
	206.75	-0.304017	0.000000	150	153.063	0.000000	1.480999
	207.3	-0.307689	0.000000	150	153.043	0.000000	1.480999
	207.85	-0.304300	0.000000	150	153.059	0.000000	1.480999
	208.4	-0.305076	0.000000	150	153.061	0.000000	1.480999
	208.95	-0.304865	0.000000	150	153.093	0.000000	1.480999
	209.5	-0.303947	0.000000	150	153.078	0.000000	1.480999
	210.05	-0.305006	0.000000	150	153.133	0.000000	1.480999
	210.6	-0.306842	0.000000	150	153.082	0.000000	1.480999
	211.15	-0.306277	0.000000	150	153.118	0.000000	1.480999
	211.7	-0.303876	0.000000	150	153.182	0.000000	1.480999
	212.25	-0.305571	0.000000	150	153.114	0.000000	1.480999
	212.8	-0.306913	0.000000	150	153.111	0.000000	1.480999
	213.35	-0.302958	0.000000	150	153.12	0.000000	1.480999
	213.9	-0.304370	0.000000	150	153.115	0.000000	1.480999
	214.45	-0.304865	0.000000	150	153.159	0.000000	1.480999
	215	-0.303382	0.000000	150	153.206	0.000000	1.480999
	215.55	-0.302181	0.000000	150	153.09	0.000000	1.480999
	216.1	-0.304017	0.000000	150	153.128	0.000000	1.480999
	216.65	-0.303099	0.000000	150	153.122	0.000000	1.480999
	217.2	-0.299851	0.000000	150	153.092	0.000000	1.480999
	217.75	-0.303876	0.000000	150	153.108	0.000000	1.480999
	218.3	-0.303735	0.000000	150	153.075	0.000000	1.480999
	218.85	-0.302605	0.000000	150	153.088	0.000000	1.480999
	219.4	-0.303735	0.000000	150	153.083	0.000000	1.480999
	219.95	-0.308466	0.000000	150	153.062	0.000000	1.480999
	220.5	-0.308254	0.000000	150	153.146	0.000000	1.480999
	221.05	-0.305147	0.000000	150	153.165	0.000000	1.480999
	221.6	-0.308607	0.000000	150	153.168	0.000000	1.480999
	222.15	-0.303029	0.000000	150	153.107	0.000000	1.480999
	222.7	-0.303382	0.000000	150	153.092	0.000000	1.480999
	223.25	-0.305147	0.000000	150	153.137	0.000000	1.480999
	223.8	-0.305712	0.000000	150	153.096	0.000000	1.480999
	224.35	-0.304017	0.000000	150	153.108	0.000000	1.480999
	224.9	-0.304370	0.000000	150	153.063	0.000000	1.480999
	225.45	-0.305430	0.000000	150	153.099	0.000000	1.480999
	226	-0.305924	0.000000	150	153.129	0.000000	1.480999
	226.55	-0.307831	0.000000	150	153.165	0.000000	1.480999
	227.1	-0.307407	0.000000	150	153.087	0.000000	1.480999
	227.65	-0.307266	0.000000	150	153.095	0.000000	1.480999
	228.2	-0.305006	0.000000	150	153.135	0.000000	1.480999
	228.75	-0.308678	0.000000	150	153.149	0.000000	1.480999
	229.3	-0.305500	0.000000	150	153.138	0.000000	1.480999
	229.85	-0.306630	0.000000	150	153.142	0.000000	1.480999
	230.4	-0.307054	0.000000	150	153.017	0.000000	1.480999
	230.95	-0.307831	0.000000	150	153.141	0.000000	1.480999
	231.5	-0.305924	0.000000	150	153.072	0.000000	1.480999
	232.05	-0.306418	0.000000	150	153.179	0.000000	1.480999
	232.6	-0.308184	0.000000	150	153.152	0.000000	1.480999
	233.15	-0.307336	0.000000	150	153.028	0.000000	1.480999
	233.7	-0.305924	0.000000	150	153.086	0.000000	1.480999
	234.25	-0.306348	0.000000	150	153.167	0.000000	1.480999
	234.8	-0.305076	0.000000	150	152.996	0.000000	1.480999
	235.35	-0.305218	0.000000	150	153.042	0.000000	1.480999
	235.9	-0.307054	0.000000	150	153.136	0.000000	1.480999
	236.45	-0.304158	0.000000	150	153.13	0.000000	1.480999
	237	-0.304935	0.000000	150	153.018	0.000000	1.480999
	237.55	-0.302464	0.000000	150	152.953	0.000000	1.480999
	238.1	-0.309384	0.000000	150	152.959	0.000000	1.480999
	238.65	-0.305288	0.000000	150	152.936	0.000000	1.480999
	239.2	-0.307619	0.000000	150	152.992	0.000000	1.480999
	239.75	-0.307619	0.000000	150	152.959	0.000000	1.480999
	240.3	-0.305359	0.000000	150	152.923	0.000000	1.480999
	240.85	-0.307195	0.000000	150	152.961	0.000000	1.480999
	241.4	-0.305218	0.000000	150	153.041	0.000000	1.480999
	241.95	-0.307266	0.000000	150	152.969	0.000000	1.480999
	242.5	-0.308113	0.000000	150	152.985	0.000000	1.480999
	243.05	-0.306701	0.000000	150	152.969	0.000000	1.480999
	243.6	-0.305500	0.000000	150	152.976	0.000000	1.480999
	244.15	-0.308254	0.000000	150	153.095	0.000000	1.480999
	244.7	-0.307054	0.000000	150	152.966	0.000000	1.480999
	245.25	-0.307901	0.000000	150	153.014	0.000000	1.480999
	245.8	-0.304158	0.000000	150	153.157	0.000000	1.480999
	246.35	-0.308325	0.000000	150	153.107	0.000000	1.480999
	246.9	-0.307548	0.000000	150	153.121	0.000000	1.480999
	247.45	-0.307972	0.000000	150	153.128	0.000000	1.480999
	248	-0.310514	0.000000	150	153.088	0.000000	1.480999
	248.55	-0.307901	0.000000	150	153.167	0.000000	1.480999
	249.1	-0.306701	0.000000	150	152.999	0.000000	1.480999
	249.65	-0.307195	0.000000	150	152.958	0.000000	1.480999
	250.2	-0.305500	0.000000	150	153.095	0.000000	1.480999
	250.75	-0.310444	0.000000	150	153.047	0.000000	1.480999
	251.3	-0.307619	0.000000	150	152.979	0.000000	1.480999
	251.85	-0.309031	0.000000	150	153.007	0.000000	1.480999
	252.4	-0.308254	0.000000	150	153.02	0.000000	1.480999
	252.95	-0.308537	0.000000	150	153.057	0.000000	1.480999
	253.5	-0.308325	0.000000	150	153.118	0.000000	1.480999
	254.05	-0.310514	0.000000	150	153.077	0.000000	1.480999
	254.6	-0.308325	0.000000	150	153.103	0.000000	1.480999
	255.15	-0.306771	0.000000	150	153.117	0.000000	1.480999
	255.7	-0.306771	0.000000	150	153.116	0.000000	1.480999
	256.25	-0.308466	0.000000	150	153.102	0.000000	1.480999
	256.8	-0.307336	0.000000	150	153.096	0.000000	1.480999
	257.35	-0.308678	0.000000	150	152.983	0.000000	1.480999
	257.9	-0.308184	0.000000	150	153.052	0.000000	1.480999
	258.45	-0.308043	0.000000	150	153.039	0.000000	1.480999
	259	-0.306489	0.000000	150	153.095	0.000000	1.480999
	259.55	-0.307266	0.000000	150	152.993	0.000000	1.480999
	260.1	-0.307478	0.000000	150	153.073	0.000000	1.480999
	260.65	-0.306348	0.000000	150	153.101	0.000000	1.480999
	261.2	-0.306348	0.000000	150	153.107	0.000000	1.480999
	261.75	-0.307195	0.000000	150	153.072	0.000000	1.480999
	262.3	-0.307901	0.000000	150	153.149	0.000000	1.480999
	262.85	-0.307760	0.000000	150	153.139	0.000000	1.480999
	263.4	-0.311079	0.000000	150	153.16	0.000000	1.480999
	263.95	-0.309737	0.000000	150	153.088	0.000000	1.480999
	264.5	-0.309243	0.000000	150	153.144	0.000000	1.480999
	265.05	-0.307478	0.000000	150	153.062	0.000000	1.480999
	265.6	-0.311503	0.000000	150	153.055	0.000000	1.480999
	266.15	-0.309526	0.000000	150	153.077	0.000000	1.480999
	266.7	-0.308466	0.000000	150	153.061	0.000000	1.480999
	267.25	-0.308466	0.000000	150	153.077	0.000000	1.480999
	267.8	-0.308607	0.000000	150	153.05	0.000000	1.480999
	268.35	-0.304582	0.000000	150	153.041	0.000000	1.480999
	268.9	-0.308749	0.000000	150	153.048	0.000000	1.480999
	269.45	-0.308396	0.000000	150	153.123	0.000000	1.480999
	270	-0.309949	0.000000	150	153.03	0.000000	1.480999
	270.55	-0.308607	0.000000	150	153.038	0.000000	1.480999
	271.1	-0.309314	0.000000	150	153.038	0.000000	1.480999
	271.65	-0.308819	0.000000	150	153.042	0.000000	1.480999
	272.2	-0.305288	0.000000	150	153.036	0.000000	1.480999
	272.75	-0.309596	0.000000	150	153.052	0.000000	1.480999
	273.3	-0.310514	0.000000	150	153.03	0.000000	1.480999
	273.85	-0.304441	0.000000	150	153.039	0.000000	1.480999
	274.4	-0.314045	0.000000	150	153.039	0.000000	1.480999
	274.95	-0.310655	0.000000	150	153.065	0.000000	1.480999
	275.5	-0.309455	0.000000	150	153.058	0.000000	1.480999
	276.05	-0.305924	0.000000	150	153.053	0.000000	1.480999
	276.6	-0.308537	0.000000	150	153.068	0.000000	1.480999
	277.15	-0.310020	0.000000	150	153.062	0.000000	1.480999
	277.7	-0.308961	0.000000	150	153.099	0.000000	1.480999
	278.25	-0.308113	0.000000	150	153.047	0.000000	1.480999
	278.8	-0.308466	0.000000	150	153.049	0.000000	1.480999
	279.35	-0.309243	0.000000	150	153.042	0.000000	1.480999
	279.9	-0.312703	0.000000	150	153.042	0.000000	1.480999
	280.45	-0.309596	0.000000	150	153.043	0.000000	1.480999
	281	-0.312350	0.000000	150	153.049	0.000000	1.480999
	281.55	-0.312280	0.000000	150	153.053	0.000000	1.480999
	282.1	-0.310090	0.000000	150	153.047	0.000000	1.480999
	282.65	-0.310655	0.000000	150	153.041	0.000000	1.480999
	283.2	-0.308890	0.000000	150	153.044	0.000000	1.480999
	283.75	-0.312562	0.000000	150	153.051	0.000000	1.480999
	284.3	-0.307407	0.000000	150	153.046	0.000000	1.480999
	284.85	-0.306136	0.000000	150	153.043	0.000000	1.480999
	285.4	-0.308607	0.000000	150	153.063	0.000000	1.480999
	285.95	-0.311503	0.000000	150	153.037	0.000000	1.480999
	286.5	-0.309384	0.000000	150	153.054	0.000000	1.480999
	287.05	-0.311997	0.000000	150	153.055	0.000000	1.480999
	287.6	-0.308113	0.000000	150	153.048	0.000000	1.480999
	288.15	-0.311503	0.000000	150	153.042	0.000000	1.480999
	288.7	-0.311362	0.000000	150	153.034	0.000000	1.480999
	289.25	-0.309879	0.000000	150	153.042	0.000000	1.480999
	289.8	-0.308607	0.000000	150	153.045	0.000000	1.480999
	290.35	-0.309737	0.000000	150	153.042	0.000000	1.480999
	290.9	-0.310302	0.000000	150	153.035	0.000000	1.480999
	291.45	-0.307901	0.000000	150	153.042	0.000000	1.480999
	292	-0.312138	0.000000	150	153.026	0.000000	1.480999
	292.55	-0.309808	0.000000	150	153.026	0.000000	1.480999
	293.1	-0.308043	0.000000	150	153.023	0.000000	1.480999
	293.65	-0.310444	0.000000	150	153.023	0.000000	1.480999
	294.2	-0.312492	0.000000	150	153.021	0.000000	1.480999
	294.75	-0.309384	0.000000	150	153.012	0.000000	1.480999
	295.3	-0.312633	0.000000	150	153.019	0.000000	1.480999
	295.85	-0.312138	0.000000	150	153.026	0.000000	1.480999
	296.4	-0.308749	0.000000	150	153.019	0.000000	1.480999
	296.95	-0.309737	0.000000	150	153.019	0.000000	1.480999
	297.5	-0.312986	0.000000	150	153.028	0.000000	1.480999
	298.05	-0.311009	0.000000	150	153.029	0.000000	1.480999
	298.6	-0.308043	0.000000	150	153.03	0.000000	1.480999
	299.15	-0.308961	0.000000	150	153.029	0.000000	1.480999
	299.7	-0.309526	0.000000	150	153.021	0.000000	1.480999
	300.25	-0.307972	0.000000	150	153.018	0.000000	1.480999
	300.8	-0.309949	0.000000	150	153.015	0.000000	1.480999
	301.35	-0.311644	0.000000	150	153.02	0.000000	1.480999
	301.9	-0.309737	0.000000	150	153.029	0.000000	1.480999
	302.45	-0.310444	0.000000	150	153.027	0.000000	1.480999
	303	-0.308749	0.000000	150	153.031	0.000000	1.480999
	303.55	-0.312138	0.000000	150	153.033	0.000000	1.480999
	304.1	-0.308184	0.000000	150	153.034	0.000000	1.480999
	304.65	-0.309737	0.000000	150	153.031	0.000000	1.480999
	305.2	-0.307195	0.000000	150	153.028	0.000000	1.480999
	305.75	-0.312492	0.000000	150	153.038	0.000000	1.480999
	306.3	-0.309808	0.000000	150	153.035	0.000000	1.480999
	306.85	-0.306983	0.000000	150	153.036	0.000000	1.480999
	307.4	-0.310020	0.000000	150	153.044	0.000000	1.480999
	307.95	-0.310867	0.000000	150	153.045	0.000000	1.480999
	308.5	-0.312986	0.000000	150	153.051	0.000000	1.480999
	309.05	-0.308819	0.000000	150	153.045	0.000000	1.480999
	309.6	-0.307619	0.000000	150	153.051	0.000000	1.480999
	310.15	-0.315458	0.000000	150	153.055	0.000000	1.480999
	310.7	-0.306913	0.000000	150	153.048	0.000000	1.480999
	311.25	-0.308325	0.000000	150	153.05	0.000000	1.480999
	311.8	-0.310797	0.000000	150	153.052	0.000000	1.480999
	312.35	-0.308537	0.000000	150	153.046	0.000000	1.480999
	312.9	-0.308819	0.000000	150	153.032	0.000000	1.480999
	313.45	-0.310090	0.000000	150	153.05	0.000000	1.480999
	314	-0.308819	0.000000	150	153.046	0.000000	1.480999
	314.55	-0.307760	0.000000	150	153.036	0.000000	1.480999
	315.1	-0.312986	0.000000	150	153.038	0.000000	1.480999
	315.65	-0.310514	0.000000	150	153.029	0.000000	1.480999
	316.2	-0.310514	0.000000	150	153.03	0.000000	1.480999
	316.75	-0.313480	0.000000	150	153.035	0.000000	1.480999
	317.3	-0.310232	0.000000	150	153.033	0.000000	1.480999
	317.85	-0.313198	0.000000	150	153.032	0.000000	1.480999
	318.4	-0.307407	0.000000	150	153.027	0.000000	1.480999
	318.95	-0.313692	0.000000	150	153.034	0.000000	1.480999
	319.5	-0.308043	0.000000	150	153.024	0.000000	1.480999
	320.05	-0.311927	0.000000	150	153.025	0.000000	1.480999
	320.6	-0.309455	0.000000	150	153.019	0.000000	1.480999
	321.15	-0.310938	0.000000	150	153.012	0.000000	1.480999
	321.7	-0.309526	0.000000	150	153.016	0.000000	1.480999
	322.25	-0.312492	0.000000	150	153.016	0.000000	1.480999
	322.8	-0.311220	0.000000	150	153.025	0.000000	1.480999
	323.35	-0.310797	0.000000	150	153.021	0.000000	1.480999
	323.9	-0.310373	0.000000	150	153.017	0.000000	1.480999
	324.45	-0.311291	0.000000	150	153.02	0.000000	1.480999
	325	-0.311856	0.000000	150	153.02	0.000000	1.480999
	325.55	-0.311079	0.000000	150	153.022	0.000000	1.480999
	326.1	-0.309949	0.000000	150	153.027	0.000000	1.480999
	326.65	-0.312421	0.000000	150	153.023	0.000000	1.480999
	327.2	-0.311220	0.000000	150	153.019	0.000000	1.480999
	327.75	-0.311856	0.000000	150	153.024	0.000000	1.480999
	328.3	-0.312209	0.000000	150	153.028	0.000000	1.480999
	328.85	-0.310514	0.000000	150	153.028	0.000000	1.480999
	329.4	-0.313127	0.000000	150	153.03	0.000000	1.480999
	329.95	-0.309949	0.000000	150	153.028	0.000000	1.480999
	330.5	-0.311503	0.000000	150	153.023	0.000000	1.480999
	331.05	-0.310020	0.000000	150	153.021	0.000000	1.480999
	331.6	-0.309808	0.000000	150	153.015	0.000000	1.480999
	332.15	-0.311220	0.000000	150	153.012	0.000000	1.480999
	332.7	-0.311362	0.000000	150	153.013	0.000000	1.480999
	333.25	-0.312986	0.000000	150	153.02	0.000000	1.480999
	333.8	-0.312562	0.000000	150	153.022	0.000000	1.480999
	334.35	-0.309808	0.000000	150	153.025	0.000000	1.480999
	334.9	-0.309596	0.000000	150	153.023	0.000000	1.480999
	335.45	-0.310867	0.000000	150	153.03	0.000000	1.480999
	336	-0.312986	0.000000	150	153.031	0.000000	1.480999
	336.55	-0.309031	0.000000	150	153.025	0.000000	1.480999
	337.1	-0.310514	0.000000	150	153.023	0.000000	1.480999
	337.65	-0.307266	0.000000	150	153.018	0.000000	1.480999
	338.2	-0.313621	0.000000	150	153.024	0.000000	1.480999
	338.75	-0.307760	0.000000	150	153.017	0.000000	1.480999
	339.3	-0.314045	0.000000	150	153.026	0.000000	1.480999
	339.85	-0.312562	0.000000	150	153.039	0.000000	1.480999
	340.4	-0.309596	0.000000	150	153.031	0.000000	1.480999
	340.95	-0.310726	0.000000	150	153.028	0.000000	1.480999
	341.5	-0.311503	0.000000	150	153.03	0.000000	1.480999
	342.05	-0.309667	0.000000	150	153.032	0.000000	1.480999
	342.6	-0.308254	0.000000	150	153.026	0.000000	1.480999
	343.15	-0.310373	0.000000	150	153.026	0.000000	1.480999
	343.7	-0.312633	0.000000	150	153.029	0.000000	1.480999
	344.25	-0.310302	0.000000	150	153.023	0.000000	1.480999
	344.8	-0.308184	0.000000	150	153.022	0.000000	1.480999
	345.35	-0.314681	0.000000	150	153.031	0.000000	1.480999
	345.9	-0.312280	0.000000	150	153.03	0.000000	1.480999
	346.45	-0.312845	0.000000	150	153.026	0.000000	1.480999
	347	-0.312845	0.000000	150	153.038	0.000000	1.480999
	347.55	-0.310302	0.000000	150	153.025	0.000000	1.480999
	348.1	-0.313551	0.000000	150	153.028	0.000000	1.480999
	348.65	-0.310444	0.000000	150	153.02	0.000000	1.480999
	349.2	-0.311927	0.000000	150	153.022	0.000000	1.480999
	349.75	-0.310514	0.000000	150	153.023	0.000000	1.480999
	350.3	-0.313127	0.000000	150	153.025	0.000000	1.480999
	350.85	-0.311079	0.000000	150	153.03	0.000000	1.480999
	351.4	-0.311503	0.000000	150	153.026	0.000000	1.480999
	351.95	-0.310090	0.000000	150	153.019	0.000000	1.480999
	352.5	-0.311715	0.000000	150	153.022	0.000000	1.480999
	353.05	-0.312350	0.000000	150	153.03	0.000000	1.480999
	353.6	-0.312845	0.000000	150	153.035	0.000000	1.480999
	354.15	-0.312280	0.000000	150	153.045	0.000000	1.480999
	354.7	-0.312068	0.000000	150	153.048	0.000000	1.480999
	355.25	-0.312138	0.000000	150	153.055	0.000000	1.480999
	355.8	-0.313057	0.000000	150	153.064	0.000000	1.480999
	356.35	-0.308749	0.000000	150	153.051	0.000000	1.480999
	356.9	-0.308466	0.000000	150	153.051	0.000000	1.480999
	357.45	-0.311927	0.000000	150	153.049	0.000000	1.480999
	358	-0.309526	0.000000	150	153.048	0.000000	1.480999
	358.55	-0.312774	0.000000	150	153.041	0.000000	1.480999
	359.1	-0.309172	0.000000	150	153.043	0.000000	1.480999
	359.65	-0.311291	0.000000	150	153.036	0.000000	1.480999
	360.2	-0.310585	0.000000	150	153.035	0.000000	1.480999
	360.75	-0.310444	0.000000	150	153.035	0.000000	1.480999
	361.3	-0.308466	0.000000	150	153.024	0.000000	1.480999
	361.85	-0.310444	0.000000	150	153.024	0.000000	1.480999
	362.4	-0.313975	0.000000	150	153.031	0.000000	1.480999
	362.95	-0.311927	0.000000	150	153.03	0.000000	1.480999
	363.5	-0.312986	0.000000	150	153.033	0.000000	1.480999
	364.05	-0.314610	0.000000	150	153.028	0.000000	1.480999
	364.6	-0.307760	0.000000	150	153.012	0.000000	1.480999
	365.15	-0.308890	0.000000	150	153.006	0.000000	1.480999
	365.7	-0.310867	0.000000	150	153.011	0.000000	1.480999
	366.25	-0.313763	0.000000	150	153.014	0.000000	1.480999
	366.8	-0.311997	0.000000	150	153.015	0.000000	1.480999
	367.35	-0.311997	0.000000	150	153.012	0.000000	1.480999
	367.9	-0.312633	0.000000	150	153.007	0.000000	1.480999
	368.45	-0.311997	0.000000	150	153.002	0.000000	1.480999
	369	-0.312633	0.000000	150	153.009	0.000000	1.480999
	369.55	-0.312986	0.000000	150	153.015	0.000000	1.480999
	370.1	-0.312068	0.000000	150	153.02	0.000000	1.480999
	370.65	-0.312845	0.000000	150	153.02	0.000000	1.480999
	371.2	-0.308678	0.000000	150	153.015	0.000000	1.480999
	371.75	-0.310726	0.000000	150	153.008	0.000000	1.480999
	372.3	-0.312209	0.000000	150	153.016	0.000000	1.480999
	372.85	-0.313410	0.000000	150	153.02	0.000000	1.480999
	373.4	-0.310444	0.000000	150	153.013	0.000000	1.480999
	373.95	-0.311362	0.000000	150	153.013	0.000000	1.480999
	374.5	-0.311573	0.000000	150	153.013	0.000000	1.480999
	375.05	-0.311715	0.000000	150	153.016	0.000000	1.480999
	375.6	-0.311856	0.000000	150	153.01	0.000000	1.480999
	376.15	-0.313621	0.000000	150	153.018	0.000000	1.480999
	376.7	-0.311009	0.000000	150	153.017	0.000000	1.480999
	377.25	-0.311927	0.000000	150	153.017	0.000000	1.480999
	377.8	-0.309879	0.000000	150	153.013	0.000000	1.480999
	378.35	-0.312915	0.000000	150	153.018	0.000000	1.480999
	378.9	-0.311856	0.000000	150	153.007	0.000000	1.480999
	379.45	-0.312492	0.000000	150	153.012	0.000000	1.480999
	380	-0.311927	0.000000	150	153.012	0.000000	1.480999
	380.55	-0.311715	0.000000	150	153.014	0.000000	1.480999
	381.1	-0.313833	0.000000	150	153.018	0.000000	1.480999
	381.65	-0.312774	0.000000	150	153.016	0.000000	1.480999
	382.2	-0.312209	0.000000	150	153.016	0.000000	1.480999
	382.75	-0.313127	0.000000	150	153.017	0.000000	1.480999
	383.3	-0.311220	0.000000	150	153.012	0.000000	1.480999
	383.85	-0.311079	0.000000	150	153.013	0.000000	1.480999
	384.4	-0.311573	0.000000	150	153.013	0.000000	1.480999
	384.95	-0.314045	0.000000	150	153.027	0.000000	1.480999
	385.5	-0.311009	0.000000	150	153.023	0.000000	1.480999
	386.05	-0.313127	0.000000	150	153.025	0.000000	1.480999
	386.6	-0.308607	0.000000	150	153.016	0.000000	1.480999
	387.15	-0.312703	0.000000	150	153.017	0.000000	1.480999
	387.7	-0.311927	0.000000	150	153.022	0.000000	1.480999
	388.25	-0.311503	0.000000	150	153.023	0.000000	1.480999
	388.8	-0.312280	0.000000	150	153.018	0.000000	1.480999
	389.35	-0.311150	0.000000	150	153.016	0.000000	1.480999
	389.9	-0.311503	0.000000	150	153.016	0.000000	1.480999
	390.45	-0.312633	0.000000	150	153.012	0.000000	1.480999
	391	-0.313904	0.000000	150	153.02	0.000000	1.480999
	391.55	-0.308819	0.000000	150	153.013	0.000000	1.480999
	392.1	-0.312350	0.000000	150	153.013	0.000000	1.480999
	392.65	-0.310585	0.000000	150	153.013	0.000000	1.480999
	393.2	-0.313410	0.000000	150	153.009	0.000000	1.480999
	393.75	-0.308537	0.000000	150	153.007	0.000000	1.480999
	394.3	-0.312774	0.000000	150	153.004	0.000000	1.480999
	394.85	-0.311009	0.000000	150	153.005	0.000000	1.480999
	395.4	-0.310797	0.000000	150	153.011	0.000000	1.480999
	395.95	-0.312774	0.000000	150	153.012	0.000000	1.480999
	396.5	-0.309667	0.000000	150	153.005	0.000000	1.480999
	397.05	-0.313339	0.000000	150	153.007	0.000000	1.480999
	397.6	-0.313198	0.000000	150	153.016	0.000000	1.480999
	398.15	-0.310232	0.000000	150	153.013	0.000000	1.480999
	398.7	-0.312492	0.000000	150	153.014	0.000000	1.480999
	399.25	-0.313621	0.000000	150	153.018	0.000000	1.480999
	399.8	-0.313057	0.000000	150	153.016	0.000000	1.480999
	400.35	-0.310444	0.000000	150	153.008	0.000000	1.480999
	400.9	-0.313621	0.000000	150	153.009	0.000000	1.480999
	401.45	-0.309808	0.000000	150	153.005	0.000000	1.480999
	402	-0.312421	0.000000	150	153.009	0.000000	1.480999
	402.55	-0.311573	0.000000	150	153.008	0.000000	1.480999
	403.1	-0.312915	0.000000	150	153.015	0.000000	1.480999
	403.65	-0.314186	0.000000	150	153.007	0.000000	1.480999
	404.2	-0.312915	0.000000	150	153.01	0.000000	1.480999
	404.75	-0.309384	0.000000	150	153.005	0.000000	1.480999
	405.3	-0.313057	0.000000	150	153.007	0.000000	1.480999
	405.85	-0.310090	0.000000	150	153.004	0.000000	1.480999
	406.4	-0.314257	0.000000	150	153.002	0.000000	1.480999
	406.95	-0.310161	0.000000	150	152.987	0.000000	1.480999
	407.5	-0.311785	0.000000	150	152.982	0.000000	1.480999
	408.05	-0.309031	0.000000	150	152.984	0.000000	1.480999
	408.6	-0.315458	0.000000	150	152.995	0.000000	1.480999
	409.15	-0.310867	0.000000	150	152.99	0.000000	1.480999
	409.7	-0.310444	0.000000	150	152.993	0.000000	1.480999
	410.25	-0.312774	0.000000	150	153.001	0.000000	1.480999
	410.8	-0.311503	0.000000	150	152.996	0.000000	1.480999
	411.35	-0.312562	0.000000	150	152.993	0.000000	1.480999
	411.9	-0.316023	0.000000	150	153.002	0.000000	1.480999
	412.45	-0.309526	0.000000	150	152.994	0.000000	1.480999
	413	-0.312986	0.000000	150	152.997	0.000000	1.480999
	413.55	-0.311573	0.000000	150	152.999	0.000000	1.480999
	414.1	-0.315881	0.000000	150	153.008	0.000000	1.480999
	414.65	-0.312915	0.000000	150	153.013	0.000000	1.480999
	415.2	-0.311715	0.000000	150	153.016	0.000000	1.480999
	415.75	-0.312774	0.000000	150	153.017	0.000000	1.480999
	416.3	-0.312562	0.000000	150	153.017	0.000000	1.480999
	416.85	-0.313057	0.000000	150	153.02	0.000000	1.480999
	417.4	-0.314186	0.000000	150	153.027	0.000000	1.480999
	417.95	-0.309384	0.000000	150	153.018	0.000000	1.480999
	418.5	-0.311432	0.000000	150	153.015	0.000000	1.480999
	419.05	-0.314328	0.000000	150	153.025	0.000000	1.480999
	419.6	-0.309949	0.000000	150	153.016	0.000000	1.480999
	420.15	-0.310938	0.000000	150	153.014	0.000000	1.480999
	420.7	-0.311503	0.000000	150	153.014	0.000000	1.480999
	421.25	-0.311715	0.000000	150	153.02	0.000000	1.480999
	421.8	-0.309737	0.000000	150	153.011	0.000000	1.480999
	422.35	-0.312986	0.000000	150	153.014	0.000000	1.480999
	422.9	-0.310938	0.000000	150	153.009	0.000000	1.480999
	423.45	-0.311856	0.000000	150	153.007	0.000000	1.480999
	424	-0.311573	0.000000	150	153.009	0.000000	1.480999
	424.55	-0.311291	0.000000	150	153.007	0.000000	1.480999
	425.1	-0.312774	0.000000	150	153.01	0.000000	1.480999
	425.65	-0.312421	0.000000	150	153.007	0.000000	1.480999
	426.2	-0.311432	0.000000	150	153.004	0.000000	1.480999
	426.75	-0.311785	0.000000	150	153.004	0.000000	1.480999
	427.3	-0.313904	0.000000	150	153.005	0.000000	1.480999
	427.85	-0.309808	0.000000	150	153.004	0.000000	1.480999
	428.4	-0.312138	0.000000	150	153.008	0.000000	1.480999
	428.95	-0.310867	0.000000	150	153.008	0.000000	1.480999
	429.5	-0.310090	0.000000	150	153.003	0.000000	1.480999
	430.05	-0.315104	0.000000	150	153.009	0.000000	1.480999
	430.6	-0.312350	0.000000	150	153.009	0.000000	1.480999
	431.15	-0.312068	0.000000	150	153.007	0.000000	1.480999
	431.7	-0.311856	0.000000	150	153.013	0.000000	1.480999
	432.25	-0.312138	0.000000	150	153.013	0.000000	1.480999
	432.8	-0.311715	0.000000	150	153.012	0.000000	1.480999
	433.35	-0.311503	0.000000	150	153.005	0.000000	1.480999
	433.9	-0.311291	0.000000	150	153.005	0.000000	1.480999
	434.45	-0.313833	0.000000	150	153.011	0.000000	1.480999
	435	-0.312138	0.000000	150	153.015	0.000000	1.480999
	435.55	-0.313198	0.000000	150	153.016	0.000000	1.480999
	436.1	-0.310585	0.000000	150	153.007	0.000000	1.480999
	436.65	-0.314328	0.000000	150	153.009	0.000000	1.480999
	437.2	-0.312915	0.000000	150	153.012	0.000000	1.480999
	437.75	-0.311927	0.000000	150	153.005	0.000000	1.480999
	438.3	-0.311644	0.000000	150	153.01	0.000000	1.480999
	438.85	-0.311856	0.000000	150	153.011	0.000000	1.480999
	439.4	-0.312562	0.000000	150	153.012	0.000000	1.480999
	439.95	-0.310373	0.000000	150	153.012	0.000000	1.480999
	440.5	-0.313904	0.000000	150	153.021	0.000000	1.480999
	441.05	-0.310938	0.000000	150	153.016	0.000000	1.480999
	441.6	-0.313763	0.000000	150	153.022	0.000000	1.480999
	442.15	-0.309172	0.000000	150	153.017	0.000000	1.480999
	442.7	-0.313763	0.000000	150	153.022	0.000000	1.480999
	443.25	-0.312280	0.000000	150	153.02	0.000000	1.480999
	443.8	-0.310938	0.000000	150	153.022	0.000000	1.480999
	444.35	-0.313127	0.000000	150	153.028	0.000000	1.480999
	444.9	-0.311150	0.000000	150	153.02	0.000000	1.480999
	445.45	-0.310373	0.000000	150	153.017	0.000000	1.480999
	446	-0.311150	0.000000	150	153.014	0.000000	1.480999
	446.55	-0.315387	0.000000	150	153.012	0.000000	1.480999
	447.1	-0.309314	0.000000	150	153.001	0.000000	1.480999
	447.65	-0.310444	0.000000	150	153.003	0.000000	1.480999
	448.2	-0.311927	0.000000	150	153.002	0.000000	1.480999
	448.75	-0.312350	0.000000	150	153.006	0.000000	1.480999
	449.3	-0.314257	0.000000	150	153.01	0.000000	1.480999
	449.85	-0.312280	0.000000	150	153.01	0.000000	1.480999
	450.4	-0.314328	0.000000	150	153.016	0.000000	1.480999
	450.95	-0.311291	0.000000	150	153.009	0.000000	1.480999
	451.5	-0.312986	0.000000	150	153.012	0.000000	1.480999
	452.05	-0.311997	0.000000	150	153.011	0.000000	1.480999
	452.6	-0.314257	0.000000	150	153.011	0.000000	1.480999
	453.15	-0.311856	0.000000	150	153.01	0.000000	1.480999
	453.7	-0.312492	0.000000	150	153.014	0.000000	1.480999
	454.25	-0.311220	0.000000	150	153.013	0.000000	1.480999
	454.8	-0.311644	0.000000	150	153.018	0.000000	1.480999
	455.35	-0.314822	0.000000	150	153.019	0.000000	1.480999
	455.9	-0.312986	0.000000	150	153.024	0.000000	1.480999
	456.45	-0.309031	0.000000	150	153.013	0.000000	1.480999
	457	-0.314540	0.000000	150	153.022	0.000000	1.480999
	457.55	-0.313621	0.000000	150	153.022	0.000000	1.480999
	458.1	-0.314610	0.000000	150	153.026	0.000000	1.480999
	458.65	-0.311291	0.000000	150	153.02	0.000000	1.480999
	459.2	-0.313410	0.000000	150	153.024	0.000000	1.480999
	459.75	-0.311009	0.000000	150	153.018	0.000000	1.480999
	460.3	-0.312421	0.000000	150	153.022	0.000000	1.480999
	460.85	-0.311291	0.000000	150	153.019	0.000000	1.480999
	461.4	-0.312986	0.000000	150	153.024	0.000000	1.480999
	461.95	-0.311927	0.000000	150	153.021	0.000000	1.480999
	462.5	-0.312703	0.000000	150	153.022	0.000000	1.480999
	463.05	-0.312492	0.000000	150	153.027	0.000000	1.480999
	463.6	-0.311997	0.000000	150	153.019	0.000000	1.480999
	464.15	-0.312845	0.000000	150	153.018	0.000000	1.480999
	464.7	-0.312774	0.000000	150	153.017	0.000000	1.480999
	465.25	-0.313198	0.000000	150	153.013	0.000000	1.480999
	465.8	-0.311785	0.000000	150	153.021	0.000000	1.480999
	466.35	-0.312915	0.000000	150	153.019	0.000000	1.480999
	466.9	-0.313057	0.000000	150	153.021	0.000000	1.480999
	467.45	-0.312562	0.000000	150	153.018	0.000000	1.480999
	468	-0.312068	0.000000	150	153.018	0.000000	1.480999
	468.55	-0.313692	0.000000	150	153.022	0.000000	1.480999
	469.1	-0.311927	0.000000	150	153.017	0.000000	1.480999
	469.65	-0.311362	0.000000	150	153.017	0.000000	1.480999
	470.2	-0.314045	0.000000	150	153.019	0.000000	1.480999
	470.75	-0.311997	0.000000	150	153.015	0.000000	1.480999
	471.3	-0.312915	0.000000	150	153.01	0.000000	1.480999
	471.85	-0.311715	0.000000	150	153.009	0.000000	1.480999
	472.4	-0.312633	0.000000	150	153.01	0.000000	1.480999
	472.95	-0.313763	0.000000	150	153.019	0.000000	1.480999
	473.5	-0.312845	0.000000	150	153.016	0.000000	1.480999
	474.05	-0.313833	0.000000	150	153.026	0.000000	1.480999
	474.6	-0.312138	0.000000	150	153.02	0.000000	1.480999
	475.15	-0.312915	0.000000	150	153.023	0.000000	1.480999
	475.7	-0.313127	0.000000	150	153.03	0.000000	1.480999
	476.25	-0.313127	0.000000	150	153.024	0.000000	1.480999
	476.8	-0.309667	0.000000	150	153.016	0.000000	1.480999
	477.35	-0.312350	0.000000	150	153.018	0.000000	1.480999
	477.9	-0.312492	0.000000	150	153.01	0.000000	1.480999
	478.45	-0.311785	0.000000	150	153.013	0.000000	1.480999
	479	-0.309384	0.000000	150	153.001	0.000000	1.480999
	479.55	-0.314116	0.000000	150	153.01	0.000000	1.480999
	480.1	-0.312703	0.000000	150	153.011	0.000000	1.480999
	480.483	-0.312421	0.000000	150	153.009	0.000000	1.480999
TEMPERATURE PID CALIBRATION VALUES:
	Proportional: 10  Integral: 500  Differential: 3

	SAMPLE TEMPERATURE CALIBRATION VALUES:
Reference	Expected (°C)	Measured (°C)	Method
Indium          	   156.600	   154.140
Tin             	   232.000	   232.000

K(x) = (0)x^3 + (0)x^2 + (0.9684)x + (7.3301)

SAMPLE TEMPERATURE CALIBRATION COMPUTED RESULTS:

		FURNACE CALIBRATION VALUES:
	Setpoint	Expected Temperature	Measured Temperature
	      1	        50.000 °C		      49.000 °C
	      2	       100.000 °C		      98.700 °C
	      3	       150.000 °C		     146.900 °C
	      4	       200.000 °C		     195.900 °C
	      5	       250.000 °C		     245.000 °C
	      6	       300.000 °C		     294.400 °C
	      7	       350.000 °C		     343.400 °C
	      8	       400.000 °C		     392.700 °C
	      9	       450.000 °C		     441.700 °C
	     10	       500.000 °C		     490.800 °C

	PROFILE VALUES FOR THIS DATA:

Software Version	11.0.0.0449
Firmware Version	1.2
Instrument Serial Number	587P2203
Load Temperature	30.0 °C
Go To Temp Rate	50.0 °C/min

NEWPAGE

	SAPPHIRE DSC HEAT OF FUSION CALIBRATION VALUES:
Reference	Temperature (°C)	Expected (W/g)	Measured (W/g)
Indium          	   154.140	    28.450 	     19.210

SAPPHIRE DSC HEAT OF FUSION CALIBRATION COMPUTED RESULTS:
Date:	7-11-2013 18:01:23
K(x) = (0)x^3 + (0)x^2 + (0)x + (1.481)